Electronics gain sent to zero with NTU + Cheby Filter
Total Bin : 257
Freq(MHz)    	    Gain(unitless)    	    Phase(rad) 
0,0,0 
3.91, 0.017, 2.705
7.81, 0.064, 2.220
11.72, 0.133, 1.768
15.62, 0.214, 1.341
19.53, 0.298, 0.938
23.44, 0.379, 0.557
27.34, 0.454, 0.194
31.25, 0.523, -0.151
35.16, 0.583, -0.482
39.06, 0.637, -0.800
42.97, 0.684, -1.109
46.88, 0.726, -1.406
50.78, 0.761, -1.696
54.69, 0.791, -1.979
58.59, 0.817, -2.256
62.50, 0.837, -2.527
66.41, 0.855, -2.792
70.31, 0.869, -3.053
74.22, 0.880, 2.975
78.12, 0.890, 2.722
82.03, 0.897, 2.473
85.94, 0.903, 2.228
89.84, 0.908, 1.985
93.75, 0.913, 1.745
97.66, 0.917, 1.508
101.56, 0.921, 1.272
105.47, 0.926, 1.037
109.37, 0.929, 0.804
113.28, 0.933, 0.571
117.19, 0.938, 0.338
121.09, 0.942, 0.109
125.00, 0.945, -0.123
128.91, 0.948, -0.353
132.81, 0.952, -0.582
136.72, 0.955, -0.812
140.62, 0.956, -1.041
144.53, 0.958, -1.269
148.44, 0.957, -1.497
152.34, 0.956, -1.723
156.25, 0.955, -1.949
160.16, 0.953, -2.172
164.06, 0.950, -2.396
167.97, 0.948, -2.619
171.87, 0.946, -2.841
175.78, 0.944, -3.062
179.69, 0.941, 3.000
183.59, 0.940, 2.780
187.50, 0.939, 2.559
191.41, 0.939, 2.339
195.31, 0.939, 2.120
199.22, 0.939, 1.899
203.12, 0.940, 1.680
207.03, 0.941, 1.459
210.94, 0.942, 1.239
214.84, 0.943, 1.021
218.75, 0.944, 0.800
222.66, 0.946, 0.580
226.56, 0.946, 0.362
230.47, 0.945, 0.142
234.37, 0.947, -0.076
238.28, 0.947, -0.295
242.19, 0.946, -0.513
246.09, 0.946, -0.730
250.00, 0.946, -0.947
253.91, 0.946, -1.165
257.81, 0.945, -1.382
261.72, 0.946, -1.599
265.62, 0.947, -1.816
269.53, 0.948, -2.035
273.44, 0.950, -2.253
277.34, 0.952, -2.473
281.25, 0.955, -2.693
285.16, 0.958, -2.913
289.06, 0.960, -3.133
292.97, 0.962, 2.929
296.87, 0.965, 2.708
300.78, 0.967, 2.486
304.69, 0.969, 2.265
308.59, 0.971, 2.045
312.50, 0.973, 1.824
316.41, 0.974, 1.603
320.31, 0.975, 1.383
324.22, 0.976, 1.162
328.12, 0.978, 0.941
332.03, 0.979, 0.721
335.94, 0.980, 0.501
339.84, 0.982, 0.281
343.75, 0.983, 0.060
347.66, 0.985, -0.162
351.56, 0.987, -0.384
355.47, 0.989, -0.608
359.37, 0.992, -0.831
363.28, 0.993, -1.055
367.19, 0.995, -1.279
371.09, 0.996, -1.503
375.00, 0.997, -1.729
378.91, 0.999, -1.954
382.81, 0.999, -2.179
386.72, 0.999, -2.405
390.62, 0.999, -2.631
394.53, 1.000, -2.858
398.44, 0.999, -3.085
402.34, 0.998, 2.971
406.25, 0.997, 2.743
410.16, 0.995, 2.515
414.06, 0.992, 2.288
417.97, 0.989, 2.059
421.87, 0.987, 1.829
425.78, 0.982, 1.600
429.69, 0.979, 1.370
433.59, 0.974, 1.140
437.50, 0.969, 0.909
441.41, 0.963, 0.678
445.31, 0.955, 0.446
449.22, 0.948, 0.215
453.12, 0.939, -0.017
457.03, 0.930, -0.249
460.94, 0.919, -0.481
464.84, 0.908, -0.712
468.75, 0.897, -0.944
472.66, 0.886, -1.174
476.56, 0.873, -1.404
480.47, 0.860, -1.633
484.37, 0.847, -1.861
488.28, 0.833, -2.090
492.19, 0.820, -2.317
496.09, 0.806, -2.540
500.00, 0.793, -2.768
503.91, 0.779, -2.995
507.81, 0.765, 3.062
511.72, 0.751, 2.836
515.62, 0.737, 2.612
519.53, 0.724, 2.387
523.44, 0.710, 2.161
527.34, 0.696, 1.938
531.25, 0.683, 1.714
535.16, 0.669, 1.489
539.06, 0.656, 1.266
542.97, 0.642, 1.043
546.87, 0.628, 0.820
550.78, 0.615, 0.598
554.69, 0.601, 0.377
558.59, 0.588, 0.156
562.50, 0.575, -0.064
566.41, 0.563, -0.284
570.31, 0.550, -0.502
574.22, 0.538, -0.721
578.12, 0.526, -0.939
582.03, 0.514, -1.156
585.94, 0.503, -1.374
589.84, 0.491, -1.590
593.75, 0.480, -1.808
597.66, 0.469, -2.023
601.56, 0.458, -2.238
605.47, 0.448, -2.453
609.37, 0.438, -2.666
613.28, 0.428, -2.881
617.19, 0.418, -3.096
621.09, 0.409, 2.975
625.00, 0.399, 2.762
628.91, 0.390, 2.549
632.81, 0.382, 2.336
636.72, 0.373, 2.124
640.62, 0.365, 1.913
644.53, 0.357, 1.701
648.44, 0.349, 1.490
652.34, 0.342, 1.281
656.25, 0.335, 1.071
660.16, 0.329, 0.860
664.06, 0.322, 0.650
667.97, 0.316, 0.442
671.87, 0.309, 0.232
675.78, 0.303, 0.024
679.69, 0.297, -0.186
683.59, 0.291, -0.394
687.50, 0.285, -0.604
691.41, 0.280, -0.813
695.31, 0.274, -1.021
699.22, 0.269, -1.231
703.12, 0.263, -1.439
707.03, 0.258, -1.648
710.94, 0.253, -1.856
714.84, 0.248, -2.065
718.75, 0.243, -2.274
722.66, 0.238, -2.483
726.56, 0.233, -2.690
730.47, 0.228, -2.898
734.37, 0.224, -3.105
738.28, 0.220, 2.970
742.19, 0.215, 2.766
746.09, 0.211, 2.560
750.00, 0.208, 2.355
753.91, 0.204, 2.150
757.81, 0.200, 1.945
761.72, 0.196, 1.740
765.62, 0.193, 1.536
769.53, 0.189, 1.331
773.44, 0.186, 1.127
777.34, 0.182, 0.922
781.25, 0.179, 0.717
785.16, 0.176, 0.512
789.06, 0.173, 0.307
792.97, 0.170, 0.104
796.87, 0.167, -0.102
800.78, 0.164, -0.309
804.69, 0.161, -0.513
808.59, 0.159, -0.717
812.50, 0.156, -0.923
816.41, 0.154, -1.127
820.31, 0.151, -1.332
824.22, 0.149, -1.538
828.12, 0.146, -1.742
832.03, 0.144, -1.947
835.94, 0.142, -2.152
839.84, 0.140, -2.356
843.75, 0.137, -2.563
847.66, 0.135, -2.766
851.56, 0.133, -2.971
855.47, 0.130, 3.108
859.37, 0.128, 2.903
863.28, 0.126, 2.700
867.19, 0.124, 2.494
871.09, 0.122, 2.291
875.00, 0.120, 2.085
878.91, 0.118, 1.884
882.81, 0.116, 1.680
886.72, 0.114, 1.477
890.62, 0.112, 1.274
894.53, 0.110, 1.072
898.44, 0.108, 0.869
902.34, 0.106, 0.668
906.25, 0.105, 0.467
910.16, 0.103, 0.265
914.06, 0.102, 0.064
917.97, 0.100, -0.138
921.87, 0.098, -0.339
925.78, 0.097, -0.540
929.69, 0.096, -0.742
933.59, 0.094, -0.943
937.50, 0.093, -1.145
941.41, 0.092, -1.347
945.31, 0.090, -1.548
949.22, 0.089, -1.750
953.12, 0.088, -1.954
957.03, 0.087, -2.157
960.94, 0.086, -2.360
964.84, 0.085, -2.564
968.75, 0.083, -2.767
972.66, 0.082, -2.972
976.56, 0.081, 3.108
980.47, 0.080, 2.903
984.37, 0.079, 2.700
988.28, 0.077, 2.496
992.19, 0.076, 2.294
996.09, 0.075, 2.092
1000.00, 0.074, 1.889
